Folder: newsdata/SPmidcap400/information_technology

File: VSM_mod.csv
,Date,High,Low,Open,Close,Volume,Adj Close,Ticker,Security,Sector,1_Day_Close_Change,1_Week_Close_Change,1_Month_Close_Change,1_Day_Volume_Change,1_Week_Volume_Change,1_Month_Volume_Change,Day_Class,Month_Class,Week_Class
0,2016-09-19,27.5,24.96,27.5,24.96,102300.0,24.74,VSM,Versum Materials Inc,information_technology,0.0,0.0,0.0,0.0,0.0,0.0,1,1,1
1,2016-09-20,25.05,24.26,25.0,24.26,283900.0,24.0462,VSM,Versum Materials Inc,information_technology,-0.0280448,0.0,0.0,1.77517,0.0,0.0,0,1,1
2,2016-09-21,24.93,23.53,24.0,24.0,571100.0,23.7884,VSM,Versum Materials Inc,information_technology,-0.0107172,0.0,0.0,1.01162,0.0,0.0,0,1,1
3,2016-09-22,24.0,22.32,24.0,23.2,572300.0,22.9955,VSM,Versum Materials Inc,information_technology,-0.0333333,0.0,0.0,0.00210121,0.0,0.0,0,1,1
4,2016-09-23,23.15,22.55,22.8,23.0,544000.0,22.7973,VSM,Versum Materials Inc,information_technology,-0.00862072,0.0,0.0,-0.0494496,0.0,0.0,0,1,1
5,2016-09-24,23.0,21.91,22.56,22.35,497800.0,22.153,VSM,Versum Materials Inc,information_technology,-0.0282609,0.0,0.0,-0.0849265,0.0,0.0,0,1,1
6,2016-09-25,23.0,21.91,22.56,22.35,497800.0,22.153,VSM,Versum Materials Inc,information_technology,0.0,0.0,0.0,0.0,0.0,0.0,1,1,1
7,2016-09-26,23.0,21.91,22.56,22.35,497800.0,22.153,VSM,Versum Materials Inc,information_technology,0.0,-0.104567,0.0,0.0,3.86608,0.0,1,1,0
8,2016-09-27,22.53,22.25,22.4,22.35,368700.0,22.153,VSM,Versum Materials Inc,information_technology,0.0,-0.0787304,0.0,-0.259341,0.298697,0.0,1,1,0
9,2016-09-28,22.75,22.25,22.35,22.47,1401900.0,22.2719,VSM,Versum Materials Inc,information_technology,0.00536908,-0.06375,0.0,2.80228,1.45474,0.0,1,1,0
10,2016-09-29,23.25,22.42,22.42,23.0,1576600.0,22.7973,VSM,Versum Materials Inc,information_technology,0.023587,-0.00862072,0.0,0.124617,1.75485,0.0,1,1,0
11,2016-09-30,23.25,22.66,23.25,22.7,1758200.0,22.4999,VSM,Versum Materials Inc,information_technology,-0.0130434,-0.0130434,0.0,0.115185,2.23199,0.0,0,1,0
12,2016-10-01,28.0,21.86,22.45,28.0,30016900.0,27.7532,VSM,Versum Materials Inc,information_technology,0.23348,0.252796,0.0,16.0725,59.2991,0.0,1,1,1
13,2016-10-02,28.0,21.86,22.45,28.0,30016900.0,27.7532,VSM,Versum Materials Inc,information_technology,0.0,0.252796,0.0,0.0,59.2991,0.0,1,1,1
14,2016-10-03,28.0,21.86,22.45,28.0,30016900.0,27.7532,VSM,Versum Materials Inc,information_technology,0.0,0.252796,0.0,0.0,59.2991,0.0,1,1,1
15,2016-10-04,25.77,24.35,25.7,24.49,8727100.0,24.2741,VSM,Versum Materials Inc,information_technology,-0.125357,0.0957494,0.0,-0.70926,22.6699,0.0,0,1,1
16,2016-10-05,24.925,23.47,23.8,23.68,3157600.0,23.4713,VSM,Versum Materials Inc,information_technology,-0.0330747,0.0538496,0.0,-0.638185,1.25237,0.0,0,1,1
17,2016-10-06,24.023,23.32,23.51,23.44,3389200.0,23.2334,VSM,Versum Materials Inc,information_technology,-0.0101351,0.0191305,0.0,0.0733468,1.14969,0.0,0,1,1
18,2016-10-07,23.48,22.92,23.13,23.38,3502500.0,23.1739,VSM,Versum Materials Inc,information_technology,-0.00255979,0.0299559,0.0,0.0334297,0.992094,0.0,0,1,1
19,2016-10-08,24.03,23.15,23.15,23.49,2488700.0,23.2829,VSM,Versum Materials Inc,information_technology,0.0047049,-0.161071,0.0,-0.28945,-0.91709,0.0,1,1,0
20,2016-10-09,24.03,23.15,23.15,23.49,2488700.0,23.2829,VSM,Versum Materials Inc,information_technology,0.0,-0.161071,0.0,0.0,-0.91709,0.0,1,1,0
21,2016-10-10,24.03,23.15,23.15,23.49,2488700.0,23.2829,VSM,Versum Materials Inc,information_technology,0.0,-0.161071,0.0,0.0,-0.91709,0.0,1,1,0
22,2016-10-11,23.66,22.72,23.0,23.3,5099600.0,23.0946,VSM,Versum Materials Inc,information_technology,-0.00808857,-0.0485913,0.0,1.0491,-0.415659,0.0,0,1,0
23,2016-10-12,23.43,22.2,22.59,23.34,4020000.0,23.1343,VSM,Versum Materials Inc,information_technology,0.00171678,-0.0143581,0.0,-0.211703,0.273119,0.0,1,1,0
24,2016-10-13,23.39,22.28,23.34,22.83,3564600.0,22.6288,VSM,Versum Materials Inc,information_technology,-0.0218509,-0.0260239,0.0,-0.113284,0.0517526,0.0,0,1,0
25,2016-10-14,22.84,22.4,22.57,22.46,2541000.0,22.262,VSM,Versum Materials Inc,information_technology,-0.0162068,-0.0393499,0.0,-0.287157,-0.274518,0.0,0,1,0
26,2016-10-15,22.59,22.25,22.42,22.47,999000.0,22.2719,VSM,Versum Materials Inc,information_technology,0.000445246,-0.0434228,0.0,-0.606848,-0.598586,0.0,1,1,0
27,2016-10-16,22.59,22.25,22.42,22.47,999000.0,22.2719,VSM,Versum Materials Inc,information_technology,0.0,-0.0434228,0.0,0.0,-0.598586,0.0,1,1,0
28,2016-10-17,22.59,22.25,22.42,22.47,999000.0,22.2719,VSM,Versum Materials Inc,information_technology,0.0,-0.0434228,0.0,0.0,-0.598586,0.0,1,1,0
29,2016-10-18,24.58,22.884,23.03,24.3,2714800.0,24.0858,VSM,Versum Materials Inc,information_technology,0.0814419,0.0429185,0.0,1.71752,-0.467645,0.0,1,1,1
30,2016-10-19,24.2,23.3,24.12,23.76,1535400.0,23.5506,VSM,Versum Materials Inc,information_technology,-0.0222222,0.0179949,-0.0480769,-0.434433,-0.61806,14.0088,0,0,1
31,2016-10-20,24.01,23.45,23.59,23.92,744200.0,23.7091,VSM,Versum Materials Inc,information_technology,0.006734,0.0477442,-0.0140148,-0.515305,-0.791225,1.62135,1,0,1
32,2016-10-21,24.02,23.18,23.75,23.33,1405700.0,23.1243,VSM,Versum Materials Inc,information_technology,-0.0246656,0.0387356,-0.0279167,0.888874,-0.446793,1.46139,0,0,1
33,2016-10-22,23.6,22.97,23.6,23.3,1082000.0,23.0946,VSM,Versum Materials Inc,information_technology,-0.00128593,0.0369381,0.00431028,-0.230277,0.0830831,0.890617,0,1,1
34,2016-10-23,23.6,22.97,23.6,23.3,1082000.0,23.0946,VSM,Versum Materials Inc,information_technology,0.0,0.0369381,0.0130434,0.0,0.0830831,0.988971,1,1,1
35,2016-10-24,23.6,22.97,23.6,23.3,1082000.0,23.0946,VSM,Versum Materials Inc,information_technology,0.0,0.0369381,0.0425055,0.0,0.0830831,1.17356,1,1,1
36,2016-10-25,23.2,22.75,23.19,23.04,2198800.0,22.8369,VSM,Versum Materials Inc,information_technology,-0.0111587,-0.0518518,0.0308725,1.03216,-0.190069,3.41703,0,1,0
37,2016-10-26,22.86,22.25,22.78,22.81,4476200.0,22.6089,VSM,Versum Materials Inc,information_technology,-0.0099827,-0.0399832,0.0205816,1.03575,1.91533,7.99196,0,1,0
38,2016-10-27,23.89,22.75,22.96,23.29,2281100.0,23.0847,VSM,Versum Materials Inc,information_technology,0.0210435,-0.0263378,0.0420582,-0.490394,2.06517,5.18687,1,1,0
39,2016-10-28,23.35,22.5,23.22,22.75,7341100.0,22.5495,VSM,Versum Materials Inc,information_technology,-0.023186,-0.0248607,0.0124611,2.21823,4.22238,4.23654,0,1,0
40,2016-10-29,22.98,22.52,22.57,22.7,1305500.0,22.4999,VSM,Versum Materials Inc,information_technology,-0.00219777,-0.025751,-0.0130434,-0.822166,0.206562,-0.171952,0,0,0
41,2016-10-30,22.98,22.52,22.57,22.7,1305500.0,22.4999,VSM,Versum Materials Inc,information_technology,0.0,-0.025751,0.0,0.0,0.206562,-0.257479,1,1,0
42,2016-10-31,22.98,22.52,22.57,22.7,1305500.0,22.4999,VSM,Versum Materials Inc,information_technology,0.0,-0.025751,-0.189286,0.0,0.206562,-0.956508,1,0,0
43,2016-11-01,22.78,22.175,22.78,22.53,4584300.0,22.3314,VSM,Versum Materials Inc,information_technology,-0.00748899,-0.0221354,-0.195357,2.51153,1.08491,-0.847276,0,0,0
44,2016-11-02,22.98,22.483,22.5,22.67,1215500.0,22.4702,VSM,Versum Materials Inc,information_technology,0.00621391,-0.00613763,-0.190357,-0.734856,-0.728453,-0.959506,1,0,0
45,2016-11-03,22.92,22.41,22.67,22.62,1023400.0,22.4206,VSM,Versum Materials Inc,information_technology,-0.00220552,-0.0287677,-0.0763577,-0.158042,-0.551357,-0.882733,0,0,0
46,2016-11-04,22.91,22.24,22.44,22.69,1346900.0,22.49,VSM,Versum Materials Inc,information_technology,0.00309459,-0.00263734,-0.0418074,0.316103,-0.816526,-0.573442,1,0,0
47,2016-11-05,23.5,22.7,22.88,23.11,1736200.0,22.9063,VSM,Versum Materials Inc,information_technology,0.0185104,0.0180617,-0.0140785,0.289034,0.329912,-0.487726,1,0,1
48,2016-11-06,23.5,22.7,22.88,23.11,1736200.0,22.9063,VSM,Versum Materials Inc,information_technology,0.0,0.0180617,-0.0115483,0.0,0.329912,-0.504297,1,0,1
49,2016-11-07,23.5,22.7,22.88,23.11,1736200.0,22.9063,VSM,Versum Materials Inc,information_technology,0.0,0.0180617,-0.0161771,0.0,0.329912,-0.302367,1,0,1
50,2016-11-08,23.24,22.71,23.05,23.13,1358500.0,22.9261,VSM,Versum Materials Inc,information_technology,0.000865363,0.0266311,-0.0153257,-0.217544,-0.703663,-0.454133,1,0,1
51,2016-11-09,23.14,22.72,22.93,23.0,2165600.0,22.7973,VSM,Versum Materials Inc,information_technology,-0.00562037,0.0145567,-0.0208599,0.594111,0.781654,-0.129827,0,0,1
52,2016-11-10,23.77,22.81,23.0,23.55,2343600.0,23.3424,VSM,Versum Materials Inc,information_technology,0.023913,0.041114,0.0107296,0.0821943,1.29001,-0.540435,1,1,1
53,2016-11-11,24.27,23.06,23.47,24.18,1076400.0,23.9669,VSM,Versum Materials Inc,information_technology,0.0267516,0.0656677,0.0359897,-0.540707,-0.200832,-0.732239,1,1,1
54,2016-11-12,24.283,23.54,24.17,23.69,1166400.0,23.4812,VSM,Versum Materials Inc,information_technology,-0.0202647,0.0250974,0.0376698,0.083612,-0.328188,-0.672782,0,1,1
55,2016-11-13,24.283,23.54,24.17,23.69,1166400.0,23.4812,VSM,Versum Materials Inc,information_technology,0.0,0.0250974,0.0547641,0.0,-0.328188,-0.540968,1,1,1
56,2016-11-14,24.283,23.54,24.17,23.69,1166400.0,23.4812,VSM,Versum Materials Inc,information_technology,0.0,0.0250974,0.0542947,0.0,-0.328188,0.167568,1,1,1
57,2016-11-15,24.01,23.5,23.68,23.89,1175000.0,23.6794,VSM,Versum Materials Inc,information_technology,0.00844233,0.0328578,0.0631954,0.00737311,-0.135075,0.176176,1,1,1
58,2016-11-16,24.02,23.62,23.72,23.99,666800.0,23.7785,VSM,Versum Materials Inc,information_technology,0.00418587,0.0430435,0.0676458,-0.432511,-0.692095,-0.332533,1,1,1
59,2016-11-17,24.4,23.8,24.09,23.99,992000.0,23.7785,VSM,Versum Materials Inc,information_technology,0.0,0.0186837,-0.0127572,0.487702,-0.57672,-0.634596,1,0,1
60,2016-11-18,24.07,23.38,23.85,23.44,817000.0,23.2334,VSM,Versum Materials Inc,information_technology,-0.0229262,-0.0306038,-0.013468,-0.176411,-0.240988,-0.467891,0,0,0
61,2016-11-19,24.66,23.44,23.44,24.59,1334900.0,24.3732,VSM,Versum Materials Inc,information_technology,0.0490614,0.0379907,0.02801,0.633905,0.144462,0.793738,1,1,1
62,2016-11-20,24.66,23.44,23.44,24.59,1334900.0,24.3732,VSM,Versum Materials Inc,information_technology,0.0,0.0379907,0.0540077,0.0,0.144462,-0.0503664,1,1,1
63,2016-11-21,24.66,23.44,23.44,24.59,1334900.0,24.3732,VSM,Versum Materials Inc,information_technology,0.0,0.0379907,0.0553648,0.0,0.144462,0.233734,1,1,1
64,2016-11-22,25.16,24.58,24.68,25.03,798000.0,24.8094,VSM,Versum Materials Inc,information_technology,0.0178935,0.0477188,0.074249,-0.402202,-0.320851,-0.262477,1,1,1
65,2016-11-23,25.582,24.88,25.08,25.44,970100.0,25.2157,VSM,Versum Materials Inc,information_technology,0.0163803,0.0604419,0.0918456,0.215664,0.454859,-0.10342,1,1,1
66,2016-11-24,25.64,25.1,25.61,25.1,346400.0,24.8787,VSM,Versum Materials Inc,information_technology,-0.0133648,0.0462693,0.0894097,-0.642923,-0.650806,-0.84246,0,1,1
67,2016-11-25,25.64,25.1,25.61,25.1,346400.0,24.8787,VSM,Versum Materials Inc,information_technology,0.0,0.0708191,0.100395,0.0,-0.57601,-0.922613,1,1,1
68,2016-11-26,25.41,24.607,25.03,24.73,1053900.0,24.512,VSM,Versum Materials Inc,information_technology,-0.0147411,0.00569335,0.061829,2.04244,-0.210503,-0.537986,0,1,1
69,2016-11-27,25.41,24.607,25.03,24.73,1053900.0,24.512,VSM,Versum Materials Inc,information_technology,0.0,0.00569335,0.0870329,0.0,-0.210503,-0.856438,1,1,1
70,2016-11-28,25.41,24.607,25.03,24.73,1053900.0,24.512,VSM,Versum Materials Inc,information_technology,0.0,0.00569335,0.0894273,0.0,-0.210503,-0.192723,1,1,1
71,2016-11-29,24.8,24.37,24.58,24.65,721100.0,24.4327,VSM,Versum Materials Inc,information_technology,-0.00323493,-0.0151818,0.085903,-0.315779,-0.0963659,-0.447645,0,1,0
72,2016-11-30,24.79,24.41,24.64,24.46,1232900.0,24.2444,VSM,Versum Materials Inc,information_technology,-0.00770793,-0.0385221,0.077533,0.709749,0.2709,-0.0556109,0,1,0
73,2016-12-01,25.93,24.52,25.1,24.62,2579700.0,24.403,VSM,Versum Materials Inc,information_technology,0.00654136,-0.0191235,0.0927652,1.09238,6.44717,-0.437275,1,1,0
74,2016-12-02,24.86,24.4,24.61,24.46,994300.0,24.2444,VSM,Versum Materials Inc,information_technology,-0.00649885,-0.0254981,0.0789589,-0.614568,1.87038,-0.181983,0,1,0
75,2016-12-03,25.01,24.27,24.68,24.85,1870200.0,24.631,VSM,Versum Materials Inc,information_technology,0.0159445,0.00485244,0.0985853,0.880921,0.774552,0.827438,1,1,1
76,2016-12-04,25.01,24.27,24.68,24.85,1870200.0,24.631,VSM,Versum Materials Inc,information_technology,0.0,0.00485244,0.0951961,0.0,0.774552,0.388522,1,1,1
77,2016-12-05,25.01,24.27,24.68,24.85,1870200.0,24.631,VSM,Versum Materials Inc,information_technology,0.0,0.00485244,0.0752921,0.0,0.774552,0.07718,1,1,1
78,2016-12-06,25.25,24.75,24.8,25.2,1784800.0,24.9779,VSM,Versum Materials Inc,information_technology,0.0140845,0.0223124,0.090437,-0.0456636,1.47511,0.0279922,1,1,1
79,2016-12-07,26.99,25.35,25.35,26.93,2402400.0,26.6926,VSM,Versum Materials Inc,information_technology,0.0686508,0.100981,0.165296,0.346033,0.948577,0.383712,1,1,1
80,2016-12-08,27.48,26.75,26.9,27.17,1047500.0,26.9305,VSM,Versum Materials Inc,information_technology,0.00891199,0.103574,0.174665,-0.563978,-0.593945,-0.228929,1,1,1
81,2016-12-09,27.31,26.75,27.15,27.06,887600.0,26.8215,VSM,Versum Materials Inc,information_technology,-0.00404861,0.106296,0.176522,-0.152649,-0.107312,-0.590137,0,1,1
82,2016-12-10,27.39,26.88,26.89,27.32,722000.0,27.0792,VSM,Versum Materials Inc,information_technology,0.00960829,0.0993963,0.160085,-0.186571,-0.613945,-0.691927,1,1,1
83,2016-12-11,27.39,26.88,26.89,27.32,722000.0,27.0792,VSM,Versum Materials Inc,information_technology,0.0,0.0993963,0.129859,0.0,-0.613945,-0.329246,1,1,1
84,2016-12-12,27.39,26.88,26.89,27.32,722000.0,27.0792,VSM,Versum Materials Inc,information_technology,0.0,0.0993963,0.153229,0.0,-0.613945,-0.381001,1,1,1
85,2016-12-13,28.0,27.352,27.49,27.8,1076100.0,27.5549,VSM,Versum Materials Inc,information_technology,0.0175695,0.103175,0.173491,0.490443,-0.397075,-0.0774177,1,1,1
86,2016-12-14,28.42,27.44,27.91,28.02,914200.0,27.773,VSM,Versum Materials Inc,information_technology,0.00791371,0.0404753,0.182778,-0.150451,-0.619464,-0.216221,1,1,1
87,2016-12-15,28.79,27.78,27.95,28.42,853000.0,28.1695,VSM,Versum Materials Inc,information_technology,0.0142755,0.0460066,0.189619,-0.0669438,-0.18568,-0.274043,1,1,1
88,2016-12-16,28.95,27.67,28.58,27.8,1409400.0,27.5549,VSM,Versum Materials Inc,information_technology,-0.0218157,0.0273466,0.158816,0.652286,0.587877,1.11368,0,1,1
89,2016-12-17,28.69,27.76,27.89,28.67,1013100.0,28.4173,VSM,Versum Materials Inc,information_technology,0.031295,0.0494144,0.195081,-0.281183,0.403186,0.0212702,1,1,1
90,2016-12-18,28.69,27.76,27.89,28.67,1013100.0,28.4173,VSM,Versum Materials Inc,information_technology,0.0,0.0494144,0.223123,0.0,0.403186,0.240024,1,1,1
91,2016-12-19,28.69,27.76,27.89,28.67,1013100.0,28.4173,VSM,Versum Materials Inc,information_technology,0.0,0.0494144,0.165921,0.0,0.403186,-0.241067,1,1,1
92,2016-12-20,29.14,28.39,28.46,28.72,762300.0,28.4668,VSM,Versum Materials Inc,information_technology,0.00174396,0.0330935,0.167954,-0.247557,-0.291609,-0.428946,1,1,1
93,2016-12-21,28.74,28.11,28.61,28.25,562200.0,28.001,VSM,Versum Materials Inc,information_technology,-0.0163649,0.00820841,0.148841,-0.262495,-0.385036,-0.578845,0,1,1
94,2016-12-22,28.31,27.82,28.23,28.03,331900.0,27.7829,VSM,Versum Materials Inc,information_technology,-0.00778759,-0.0137227,0.119856,-0.409641,-0.610903,-0.584085,0,1,0
95,2016-12-23,28.35,27.81,28.12,28.2,285800.0,27.9514,VSM,Versum Materials Inc,information_technology,0.00606493,0.0143885,0.108491,-0.138897,-0.797219,-0.705391,1,1,1
96,2016-12-24,28.71,27.98,28.12,28.17,198400.0,27.9217,VSM,Versum Materials Inc,information_technology,-0.00106385,-0.0174398,0.122311,-0.305808,-0.804165,-0.427252,0,1,0
97,2016-12-25,28.71,27.98,28.12,28.17,198400.0,27.9217,VSM,Versum Materials Inc,information_technology,0.0,-0.0174398,0.122311,0.0,-0.804165,-0.427252,1,1,0
98,2016-12-26,28.71,27.98,28.12,28.17,198400.0,27.9217,VSM,Versum Materials Inc,information_technology,0.0,-0.0174398,0.139102,0.0,-0.804165,-0.811747,1,1,0
99,2016-12-27,28.71,27.98,28.12,28.17,198400.0,27.9217,VSM,Versum Materials Inc,information_technology,0.0,-0.0191504,0.139102,0.0,-0.739735,-0.811747,1,1,0
100,2016-12-28,28.32,27.85,28.15,28.08,492800.0,27.8325,VSM,Versum Materials Inc,information_technology,-0.00319489,-0.0060177,0.135463,1.48387,-0.123444,-0.532403,0,1,0
101,2016-12-29,28.16,27.56,28.0,27.92,238800.0,27.6739,VSM,Versum Materials Inc,information_technology,-0.005698,-0.00392439,0.132657,-0.515422,-0.280506,-0.668839,0,1,0
102,2016-12-30,28.09,27.71,27.97,28.07,309000.0,27.8226,VSM,Versum Materials Inc,information_technology,0.00537248,-0.00460997,0.147588,0.29397,0.0811756,-0.749371,1,1,0
103,2016-12-31,28.313,27.24,28.11,27.69,905100.0,27.4459,VSM,Versum Materials Inc,information_technology,-0.0135376,-0.0170394,0.124695,1.92913,3.562,-0.649145,0,1,0
104,2017-01-01,28.313,27.24,28.11,27.69,905100.0,27.4459,VSM,Versum Materials Inc,information_technology,0.0,-0.0170394,0.132052,0.0,3.562,-0.0897114,1,1,0
105,2017-01-02,28.313,27.24,28.11,27.69,905100.0,27.4459,VSM,Versum Materials Inc,information_technology,0.0,-0.0170394,0.114286,0.0,3.562,-0.516041,1,1,0
[...]
721,2018-09-10,38.315,37.78,37.99,37.99,241300.0,37.99,VSM,Versum Materials Inc,information_technology,0.0,-0.0348069,0.0326176,0.0,0.228615,-0.614229,1,1,0
722,2018-09-11,37.82,37.37,37.71,37.68,259400.0,37.68,VSM,Versum Materials Inc,information_technology,-0.00816008,-0.0426829,0.0241913,0.0750104,0.320774,-0.585292,0,1,0
723,2018-09-12,37.12,36.05,37.07,36.71,692700.0,36.71,VSM,Versum Materials Inc,information_technology,-0.0257431,-0.0592004,-0.00217455,1.67039,0.073787,0.107434,0,0,0
724,2018-09-13,37.45,36.54,37.04,36.72,393700.0,36.72,VSM,Versum Materials Inc,information_technology,0.000272464,-0.021061,-0.00514762,-0.431644,-0.00429944,-0.089711,1,0,0
725,2018-09-14,36.94,36.41,36.75,36.54,541200.0,36.54,VSM,Versum Materials Inc,information_technology,-0.00490197,-0.0310262,-0.000820311,0.374651,0.617937,0.431746,0,0,0
726,2018-09-15,36.79,35.935,36.51,35.97,500600.0,35.97,VSM,Versum Materials Inc,information_technology,-0.0155993,-0.0531719,-0.0361736,-0.0750185,1.0746,-0.0192006,0,0,0
727,2018-09-16,36.79,35.935,36.51,35.97,500600.0,35.97,VSM,Versum Materials Inc,information_technology,0.0,-0.0531719,-0.0413113,0.0,1.0746,-0.010085,1,0,0
728,2018-09-17,36.79,35.935,36.51,35.97,500600.0,35.97,VSM,Versum Materials Inc,information_technology,0.0,-0.0531719,-0.0446215,0.0,1.0746,0.623217,1,0,0
729,2018-09-18,36.32,35.59,36.22,35.62,477300.0,35.62,VSM,Versum Materials Inc,information_technology,-0.00973039,-0.0546709,-0.0539177,-0.0465441,0.840015,0.547665,0,0,0
730,2018-09-19,35.87,35.25,35.74,35.77,671700.0,35.77,VSM,Versum Materials Inc,information_technology,0.00421116,-0.0256061,-0.0499336,0.407291,-0.0303162,1.17802,1,0,0
731,2018-09-20,36.87,35.98,36.13,36.77,488900.0,36.77,VSM,Versum Materials Inc,information_technology,0.0279564,0.00136163,-0.0280201,-0.272145,0.241808,0.205375,1,0,1
732,2018-09-21,37.05,36.59,36.82,36.66,905000.0,36.66,VSM,Versum Materials Inc,information_technology,-0.00299159,0.00328404,-0.0365309,0.851094,0.67221,0.46725,0,0,1
733,2018-09-22,36.86,36.01,36.52,36.84,456600.0,36.84,VSM,Versum Materials Inc,information_technology,0.00490999,0.0241868,-0.0433653,-0.49547,-0.0878945,0.535306,1,0,1
734,2018-09-23,36.86,36.01,36.52,36.84,456600.0,36.84,VSM,Versum Materials Inc,information_technology,0.0,0.0241868,-0.0460901,0.0,-0.0878945,0.912861,1,0,1
735,2018-09-24,36.86,36.01,36.52,36.84,456600.0,36.84,VSM,Versum Materials Inc,information_technology,0.0,0.0241868,-0.0635486,0.0,-0.0878945,0.430451,1,0,1
736,2018-09-25,36.905,36.37,36.78,36.39,345200.0,36.39,VSM,Versum Materials Inc,information_technology,-0.012215,0.0216171,-0.0749873,-0.243977,-0.276765,0.0814536,0,0,1
737,2018-09-26,36.319,35.78,36.26,35.79,338300.0,35.79,VSM,Versum Materials Inc,information_technology,-0.016488,0.000559141,-0.0902389,-0.0199884,-0.496353,0.0598371,0,0,1
738,2018-09-27,36.1,35.6,35.84,36.04,465500.0,36.04,VSM,Versum Materials Inc,information_technology,0.00698519,-0.0198531,-0.0931052,0.375998,-0.0478625,0.421808,1,0,0
739,2018-09-28,36.61,35.925,36.0,36.01,502400.0,36.01,VSM,Versum Materials Inc,information_technology,-0.00083248,-0.0177305,-0.0940881,0.0792696,-0.444862,1.57377,0,0,0
740,2018-09-29,36.35,35.89,36.27,35.97,282700.0,35.97,VSM,Versum Materials Inc,information_technology,-0.00111072,-0.0236156,-0.0930408,-0.437301,-0.380859,0.194339,0,0,0
741,2018-09-30,36.35,35.89,36.27,35.97,282700.0,35.97,VSM,Versum Materials Inc,information_technology,0.0,-0.0236156,-0.096004,0.0,-0.380859,-0.183891,1,0,0
742,2018-10-01,36.35,35.89,36.27,35.97,282700.0,35.97,VSM,Versum Materials Inc,information_technology,0.0,-0.0236156,-0.086128,0.0,-0.380859,0.439409,1,0,0
743,2018-10-02,36.21,35.69,35.88,35.97,329900.0,35.97,VSM,Versum Materials Inc,information_technology,0.0,-0.0115416,-0.086128,0.166961,-0.0443221,0.679735,1,0,0
744,2018-10-03,36.04,35.67,35.98,35.74,582700.0,35.74,VSM,Versum Materials Inc,information_technology,-0.0063942,-0.00139702,-0.0919715,0.766293,0.722436,1.9669,0,0,0
745,2018-10-04,35.67,34.64,35.67,34.93,363300.0,34.93,VSM,Versum Materials Inc,information_technology,-0.0226637,-0.0307991,-0.112551,-0.376523,-0.219549,0.849796,0,0,0
746,2018-10-05,34.9,33.92,34.9,34.27,439300.0,34.27,VSM,Versum Materials Inc,information_technology,-0.0188949,-0.0483199,-0.121732,0.209194,-0.125597,-0.31902,0,0,0
747,2018-10-06,34.46,33.5,34.11,34.0,353400.0,34.0,VSM,Versum Materials Inc,information_technology,-0.00787862,-0.0547679,-0.093575,-0.195538,0.250088,-0.106222,0,0,0
748,2018-10-07,34.46,33.5,34.11,34.0,353400.0,34.0,VSM,Versum Materials Inc,information_technology,0.0,-0.0547679,-0.0983824,0.0,0.250088,0.0565022,1,0,0
749,2018-10-08,34.46,33.5,34.11,34.0,353400.0,34.0,VSM,Versum Materials Inc,information_technology,0.0,-0.0547679,-0.105028,0.0,0.250088,0.464567,1,0,0
750,2018-10-09,33.85,33.27,33.85,33.32,515400.0,33.32,VSM,Versum Materials Inc,information_technology,-0.02,-0.0736725,-0.122927,0.458404,0.562292,1.13593,0,0,0
751,2018-10-10,33.49,32.6,33.0,32.65,669800.0,32.65,VSM,Versum Materials Inc,information_technology,-0.020108,-0.0864578,-0.140563,0.299573,0.149477,1.7758,0,0,0
752,2018-10-11,33.07,31.58,32.66,31.62,612200.0,31.62,VSM,Versum Materials Inc,information_technology,-0.0315467,-0.0947609,-0.160828,-0.0859958,0.685109,1.36006,0,0,0
753,2018-10-12,32.26,31.01,32.23,31.39,859400.0,31.39,VSM,Versum Materials Inc,information_technology,-0.00727392,-0.0840385,-0.14492,0.40379,0.956294,0.240653,0,0,0
754,2018-10-13,31.88,31.315,31.33,31.59,486400.0,31.59,VSM,Versum Materials Inc,information_technology,0.00637148,-0.0708823,-0.139706,-0.434024,0.376344,0.235458,1,0,0
755,2018-10-14,31.88,31.315,31.33,31.59,486400.0,31.59,VSM,Versum Materials Inc,information_technology,0.0,-0.0708823,-0.135468,0.0,0.376344,-0.101256,1,0,0
756,2018-10-15,31.88,31.315,31.33,31.59,486400.0,31.59,VSM,Versum Materials Inc,information_technology,0.0,-0.0708823,-0.121768,0.0,0.376344,-0.028366,1,0,0
757,2018-10-16,32.7,31.76,31.97,32.59,255000.0,32.59,VSM,Versum Materials Inc,information_technology,0.0316556,-0.0219087,-0.0939672,-0.47574,-0.505239,-0.490611,1,0,0
758,2018-10-17,33.26,32.66,32.87,32.89,534300.0,32.89,VSM,Versum Materials Inc,information_technology,0.00920525,0.00735062,-0.085627,1.09529,-0.202299,0.0673192,1,0,1
759,2018-10-18,32.71,31.62,32.55,31.75,363300.0,31.75,VSM,Versum Materials Inc,information_technology,-0.034661,0.0041113,-0.108647,-0.320045,-0.406566,-0.238843,0,0,1
760,2018-10-19,31.91,31.15,31.89,31.35,435600.0,31.35,VSM,Versum Materials Inc,information_technology,-0.0125984,-0.00127426,-0.123567,0.199009,-0.493135,-0.351496,0,0,0
761,2018-10-20,31.61,30.92,31.57,30.99,693100.0,30.99,VSM,Versum Materials Inc,information_technology,-0.0114833,-0.0189934,-0.157193,0.591139,0.424959,0.417672,0,0,0
762,2018-10-21,31.61,30.92,31.57,30.99,693100.0,30.99,VSM,Versum Materials Inc,information_technology,0.0,-0.0189934,-0.154664,0.0,0.424959,-0.234144,1,0,0
763,2018-10-22,31.61,30.92,31.57,30.99,693100.0,30.99,VSM,Versum Materials Inc,information_technology,0.0,-0.0189934,-0.158795,0.0,0.424959,0.517959,1,0,0
764,2018-10-23,31.3,30.01,30.18,30.97,385800.0,30.97,VSM,Versum Materials Inc,information_technology,-0.000645384,-0.0497085,-0.159338,-0.44337,0.512941,-0.155059,0,0,0
765,2018-10-24,30.93,28.96,30.76,29.01,912800.0,29.01,VSM,Versum Materials Inc,information_technology,-0.063287,-0.117969,-0.212541,1.36599,0.708404,0.999124,0,0,0
766,2018-10-25,30.65,29.341,29.36,30.61,689600.0,30.61,VSM,Versum Materials Inc,information_technology,0.0551534,-0.0359055,-0.158835,-0.244522,0.898156,0.997683,1,0,0
767,2018-10-26,31.3,29.5,30.03,30.76,767700.0,30.76,VSM,Versum Materials Inc,information_technology,0.00490035,-0.0188198,-0.140542,0.113254,0.762397,1.26929,1,0,0
768,2018-10-27,31.52,29.98,31.33,30.44,476600.0,30.44,VSM,Versum Materials Inc,information_technology,-0.0104031,-0.0177476,-0.155383,-0.379185,-0.312365,0.0238453,0,0,0
769,2018-10-28,31.52,29.98,31.33,30.44,476600.0,30.44,VSM,Versum Materials Inc,information_technology,0.0,-0.0177476,-0.154679,0.0,-0.312365,-0.0513535,1,0,0
770,2018-10-29,31.52,29.98,31.33,30.44,476600.0,30.44,VSM,Versum Materials Inc,information_technology,0.0,-0.0177476,-0.153739,0.0,-0.312365,0.685886,1,0,0
771,2018-10-30,31.01,30.34,30.47,30.88,378300.0,30.88,VSM,Versum Materials Inc,information_technology,0.0144546,-0.00290604,-0.141507,-0.206253,-0.0194401,0.338168,1,0,0
772,2018-10-31,31.64,30.79,31.38,31.56,497500.0,31.56,VSM,Versum Materials Inc,information_technology,0.0220207,0.0879007,-0.122602,0.315094,-0.454974,0.759816,1,0,1